Folder: dcache-miscellany/xroot/tls-bandwidth/tpc-logs

Note: xroot/tls-bandwidth/tpc-logs/write-timing.txt
10:28:01 9896460288
10:28:01 9898557440
10:28:01 9900654592
10:28:01 9902751744
10:28:01 9904848896
10:28:01 9906946048
10:28:01 9909043200
10:28:02 9911140352
10:28:02 9913237504
10:28:02 9915334656
10:28:02 9917431808
10:28:02 9919528960
10:28:02 9921626112
10:28:02 9923723264
10:28:02 9925820416
10:28:03 9927917568
10:28:03 9930014720
10:28:03 9932111872
10:28:03 9934209024
10:28:03 9936306176
10:28:03 9938403328
10:28:03 9940500480
10:28:03 9942597632
10:28:04 9944694784
10:28:04 9946791936
10:28:04 9948889088
10:28:04 9950986240
10:28:04 9953083392
10:28:04 9955180544
10:28:04 9957277696
10:28:04 9959374848
10:28:05 9961472000
10:28:05 9963569152
10:28:05 9965666304
10:28:05 9967763456
10:28:05 9969860608
10:28:05 9971957760
10:28:05 9974054912
10:28:05 9976152064
10:28:06 9978249216
10:28:06 9980346368
10:28:06 9982443520
10:28:06 9984540672
10:28:06 9986637824
10:28:06 9988734976
10:28:06 9990832128
10:28:06 9992929280
10:28:07 9995026432
10:28:07 9997123584
10:28:07 9999220736
10:28:07 10001317888
10:28:07 10003415040
10:28:07 10005512192
10:28:07 10007609344
10:28:07 10009706496
10:28:08 10011803648
10:28:08 10013900800
10:28:08 10015997952
10:28:08 10018095104
10:28:08 10020192256
10:28:08 10022289408
10:28:08 10024386560
10:28:09 10026483712
10:28:09 10028580864
10:28:09 10030678016
10:28:09 10032775168
10:28:09 10034872320
10:28:09 10036969472
10:28:09 10039066624
10:28:10 10041163776
10:28:10 10043260928
10:28:10 10045358080
10:28:10 10047455232
10:28:10 10049552384
10:28:10 10051649536
10:28:10 10053746688
10:28:10 10055843840
10:28:11 10057940992
10:28:11 10060038144
10:28:11 10062135296
10:28:11 10064232448
10:28:11 10066329600
10:28:11 10068426752
10:28:11 10070523904
10:28:11 10072621056
10:28:12 10074718208
10:28:12 10076815360
10:28:12 10078912512
10:28:12 10081009664
10:28:12 10083106816
10:28:12 10085203968
10:28:12 10087301120
10:28:12 10089398272
10:28:13 10091495424
10:28:13 10093592576
10:28:13 10095689728
10:28:13 10097786880
10:28:13 10099884032
10:28:13 10100000000

File: xrd-read-timing.txt
10:33:12 9894363136
10:33:12 9896460288
10:33:12 9898557440
10:33:12 9900654592
10:33:12 9902751744
10:33:12 9904848896
10:33:12 9906946048
10:33:12 9909043200
10:33:12 9911140352
10:33:12 9913237504
10:33:12 9915334656
10:33:12 9917431808
10:33:12 9919528960
10:33:12 9921626112
10:33:12 9923723264
10:33:12 9925820416
10:33:12 9927917568
10:33:12 9930014720
10:33:12 9932111872
10:33:12 9934209024
10:33:12 9936306176
10:33:12 9938403328
10:33:12 9940500480
10:33:12 9942597632
10:33:12 9944694784
10:33:12 9946791936
10:33:12 9948889088
10:33:12 9950986240
10:33:12 9953083392
10:33:12 9955180544
10:33:12 9957277696
10:33:12 9959374848
10:33:12 9961472000
10:33:12 9963569152
10:33:12 9965666304
10:33:12 9967763456
10:33:12 9969860608
10:33:12 9971957760
10:33:12 9974054912
10:33:12 9976152064
10:33:12 9978249216
10:33:12 9980346368
10:33:12 9982443520
10:33:12 9984540672
10:33:12 9986637824
10:33:12 9988734976
10:33:12 9990832128
10:33:12 9992929280
10:33:12 9995026432
10:33:12 9997123584
10:33:12 9999220736
10:33:12 10001317888
10:33:12 10003415040
10:33:12 10005512192
10:33:12 10007609344
10:33:12 10009706496
10:33:12 10011803648
10:33:12 10013900800
10:33:12 10015997952
10:33:12 10018095104
10:33:12 10020192256
10:33:12 10022289408
10:33:12 10024386560
10:33:13 10026483712
10:33:13 10028580864
10:33:13 10030678016
10:33:13 10032775168
10:33:13 10034872320
10:33:13 10036969472
10:33:13 10039066624
10:33:13 10041163776
10:33:13 10043260928
10:33:13 10045358080
10:33:13 10047455232
10:33:13 10049552384
10:33:13 10051649536
10:33:13 10053746688
10:33:13 10055843840
10:33:13 10057940992
10:33:13 10060038144
10:33:13 10062135296
10:33:13 10064232448
10:33:13 10066329600
10:33:13 10068426752
10:33:13 10070523904
10:33:13 10072621056
10:33:13 10074718208
10:33:13 10076815360
10:33:13 10078912512
10:33:13 10081009664
10:33:13 10083106816
10:33:13 10085203968
10:33:13 10087301120
10:33:13 10089398272
10:33:13 10091495424
10:33:13 10093592576
10:33:13 10095689728
10:33:13 10097786880
10:33:13 10099884032
10:33:13 10100000000